STUDYID,DOMAIN,USUBJID,SUBJID,RFSTDTC,RFENDTC,RFICDTC,SITEID,BRTHDTC,AGE,AGEU,SEX,RACE,ETHNIC,ARMCD,ARM,ACTARMCD,ACTARM,COUNTRY
VGS-DEMO-101,DM,VGS-DEMO-101-0001,0001,2025-02-05,2025-04-08,2025-02-04,101,1950-06-06,75,YEARS,M,WHITE,NOT HISPANIC OR LATINO,B,Drug 10 mg,B,Drug 10 mg,USA
VGS-DEMO-101,DM,VGS-DEMO-101-0002,0002,2025-01-11,2025-03-23,2025-01-10,102,1968-12-28,57,YEARS,M,WHITE,NOT HISPANIC OR LATINO,C,Drug 20 mg,C,Drug 20 mg,JPN
VGS-DEMO-101,DM,VGS-DEMO-101-0003,0003,2025-02-16,2025-06-08,2025-02-10,103,1949-05-05,76,YEARS,M,BLACK OR AFRICAN AMERICAN,NOT HISPANIC OR LATINO,A,Placebo,A,Placebo,GBR
VGS-DEMO-101,DM,VGS-DEMO-101-0004,0004,2025-01-28,2025-04-29,2025-01-27,104,1980-06-19,45,YEARS,F,NATIVE HAWAIIAN OR OTHER PACIFIC ISLANDER,HISPANIC OR LATINO,B,Drug 10 mg,B,Drug 10 mg,JPN
VGS-DEMO-101,DM,VGS-DEMO-101-0005,0005,2025-01-11,2025-03-16,2025-01-07,100,1999-08-20,26,YEARS,F,ASIAN,NOT HISPANIC OR LATINO,C,Drug 20 mg,C,Drug 20 mg,DEU
VGS-DEMO-101,DM,VGS-DEMO-101-0006,0006,2025-01-20,2025-05-12,2025-01-15,101,1996-02-01,29,YEARS,M,WHITE,NOT HISPANIC OR LATINO,A,Placebo,A,Placebo,GBR
VGS-DEMO-101,DM,VGS-DEMO-101-0007,0007,2025-01-20,2025-03-30,2025-01-16,102,1958-09-10,67,YEARS,U,WHITE,NOT HISPANIC OR LATINO,B,Drug 10 mg,B,Drug 10 mg,DEU
VGS-DEMO-101,DM,VGS-DEMO-101-0008,0008,2025-01-12,2025-03-19,2025-01-08,103,1947-11-10,78,YEARS,F,WHITE,NOT HISPANIC OR LATINO,C,Drug 20 mg,C,Drug 20 mg,JPN
VGS-DEMO-101,DM,VGS-DEMO-101-0009,0009,2025-02-04,2025-05-06,2025-02-03,104,1961-04-06,64,YEARS,M,AMERICAN INDIAN OR ALASKA NATIVE,NOT HISPANIC OR LATINO,A,Placebo,A,Placebo,JPN
VGS-DEMO-101,DM,VGS-DEMO-101-0010,0010,2025-02-16,2025-05-10,2025-02-14,100,1948-10-23,77,YEARS,M,ASIAN,NOT HISPANIC OR LATINO,B,Drug 10 mg,B,Drug 10 mg,GBR
VGS-DEMO-101,DM,VGS-DEMO-101-0011,0011,2025-02-19,2025-06-04,2025-02-15,101,1963-07-16,62,YEARS,F,ASIAN,HISPANIC OR LATINO,C,Drug 20 mg,C,Drug 20 mg,JPN
VGS-DEMO-101,DM,VGS-DEMO-101-0012,0012,2025-02-06,2025-06-05,2025-02-05,102,1998-12-22,27,YEARS,M,AMERICAN INDIAN OR ALASKA NATIVE,HISPANIC OR LATINO,A,Placebo,A,Placebo,DEU
VGS-DEMO-101,DM,VGS-DEMO-101-0013,0013,2025-02-08,2025-04-13,2025-02-03,103,1999-04-10,26,YEARS,F,WHITE,HISPANIC OR LATINO,B,Drug 10 mg,B,Drug 10 mg,GBR
VGS-DEMO-101,DM,VGS-DEMO-101-0014,0014,2025-02-17,2025-05-21,2025-02-14,104,1972-01-09,53,YEARS,M,ASIAN,NOT HISPANIC OR LATINO,C,Drug 20 mg,C,Drug 20 mg,DEU
VGS-DEMO-101,DM,VGS-DEMO-101-0015,0015,2025-02-03,2025-04-27,2025-01-29,100,1959-11-17,66,YEARS,F,WHITE,HISPANIC OR LATINO,A,Placebo,A,Placebo,USA
VGS-DEMO-101,DM,VGS-DEMO-101-0016,0016,2025-01-09,2025-04-01,2025-01-06,101,1991-10-25,34,YEARS,F,AMERICAN INDIAN OR ALASKA NATIVE,HISPANIC OR LATINO,B,Drug 10 mg,B,Drug 10 mg,USA
VGS-DEMO-101,DM,VGS-DEMO-101-0017,0017,2025-01-20,2025-03-23,2025-01-17,102,1983-12-23,42,YEARS,M,NATIVE HAWAIIAN OR OTHER PACIFIC ISLANDER,HISPANIC OR LATINO,C,Drug 20 mg,C,Drug 20 mg,JPN
VGS-DEMO-101,DM,VGS-DEMO-101-0018,0018,2025-02-16,2025-06-16,2025-02-15,103,1997-11-26,28,YEARS,F,ASIAN,HISPANIC OR LATINO,A,Placebo,A,Placebo,JPN
VGS-DEMO-101,DM,VGS-DEMO-101-0019,0019,2025-02-04,2025-05-19,2025-01-28,104,1993-01-05,32,YEARS,F,ASIAN,NOT HISPANIC OR LATINO,B,Drug 10 mg,B,Drug 10 mg,GBR
VGS-DEMO-101,DM,VGS-DEMO-101-0020,0020,2025-02-12,2025-04-30,2025-02-06,100,1996-02-04,29,YEARS,M,ASIAN,NOT HISPANIC OR LATINO,C,Drug 20 mg,C,Drug 20 mg,USA
VGS-DEMO-101,DM,VGS-DEMO-101-0021,0021,2025-02-08,2025-04-23,2025-02-03,101,1978-01-03,47,YEARS,M,NATIVE HAWAIIAN OR OTHER PACIFIC ISLANDER,HISPANIC OR LATINO,A,Placebo,A,Placebo,DEU
VGS-DEMO-101,DM,VGS-DEMO-101-0022,0022,2025-01-27,2025-04-21,2025-01-21,102,1953-01-02,72,YEARS,F,AMERICAN INDIAN OR ALASKA NATIVE,NOT HISPANIC OR LATINO,B,Drug 10 mg,B,Drug 10 mg,GBR
VGS-DEMO-101,DM,VGS-DEMO-101-0023,0023,2025-02-04,2025-05-02,2025-02-01,103,1974-06-17,51,YEARS,M,ASIAN,NOT HISPANIC OR LATINO,C,Drug 20 mg,C,Drug 20 mg,GBR
VGS-DEMO-101,DM,VGS-DEMO-101-0024,0024,2025-01-19,2025-03-25,2025-01-16,104,1999-05-13,26,YEARS,M,NATIVE HAWAIIAN OR OTHER PACIFIC ISLANDER,NOT HISPANIC OR LATINO,A,Placebo,A,Placebo,USA
VGS-DEMO-101,DM,VGS-DEMO-101-0025,0025,2025-02-12,2025-05-27,2025-02-07,100,1966-09-11,59,YEARS,M,WHITE,NOT HISPANIC OR LATINO,B,Drug 10 mg,B,Drug 10 mg,DEU
VGS-DEMO-101,DM,VGS-DEMO-101-0026,0026,2025-02-15,2025-05-06,2025-02-11,101,1951-01-15,74,YEARS,F,AMERICAN INDIAN OR ALASKA NATIVE,HISPANIC OR LATINO,C,Drug 20 mg,C,Drug 20 mg,GBR
VGS-DEMO-101,DM,VGS-DEMO-101-0027,0027,2025-01-12,2025-04-14,2025-01-07,102,1981-12-15,44,YEARS,M,ASIAN,NOT HISPANIC OR LATINO,A,Placebo,A,Placebo,DEU
VGS-DEMO-101,DM,VGS-DEMO-101-0028,0028,2025-01-14,2025-05-08,2025-01-13,103,1952-11-18,73,YEARS,F,BLACK OR AFRICAN AMERICAN,NOT HISPANIC OR LATINO,B,Drug 10 mg,B,Drug 10 mg,JPN
VGS-DEMO-101,DM,VGS-DEMO-101-0029,0029,2025-02-14,2025-04-21,2025-02-13,104,1960-07-07,65,YEARS,F,ASIAN,NOT HISPANIC OR LATINO,C,Drug 20 mg,C,Drug 20 mg,IND
VGS-DEMO-101,DM,VGS-DEMO-101-0030,0030,2025-02-15,2025-05-04,2025-02-12,100,1985-04-28,40,YEARS,M,AMERICAN INDIAN OR ALASKA NATIVE,HISPANIC OR LATINO,A,Placebo,A,Placebo,DEU
VGS-DEMO-101,DM,VGS-DEMO-101-0031,0031,2025-01-23,2025-05-18,2025-01-21,101,1951-08-28,74,YEARS,F,BLACK OR AFRICAN AMERICAN,NOT HISPANIC OR LATINO,B,Drug 10 mg,B,Drug 10 mg,DEU
VGS-DEMO-101,DM,VGS-DEMO-101-0032,0032,2025-01-27,2025-05-01,2025-01-26,102,1981-07-05,44,YEARS,M,AMERICAN INDIAN OR ALASKA NATIVE,HISPANIC OR LATINO,C,Drug 20 mg,C,Drug 20 mg,DEU
VGS-DEMO-101,DM,VGS-DEMO-101-0033,0033,2025-02-04,2025-04-16,2025-01-30,103,1958-10-01,67,YEARS,M,AMERICAN INDIAN OR ALASKA NATIVE,HISPANIC OR LATINO,A,Placebo,A,Placebo,DEU
VGS-DEMO-101,DM,VGS-DEMO-101-0034,0034,2025-02-20,2025-05-08,2025-02-13,104,1954-05-27,71,YEARS,M,NATIVE HAWAIIAN OR OTHER PACIFIC ISLANDER,HISPANIC OR LATINO,B,Drug 10 mg,B,Drug 10 mg,DEU
VGS-DEMO-101,DM,VGS-DEMO-101-0035,0035,2025-02-14,2025-05-23,2025-02-11,100,2003-12-09,22,YEARS,F,BLACK OR AFRICAN AMERICAN,NOT HISPANIC OR LATINO,C,Drug 20 mg,C,Drug 20 mg,IND
VGS-DEMO-101,DM,VGS-DEMO-101-0036,0036,2025-02-01,2025-05-23,2025-01-27,101,2000-07-28,25,YEARS,F,BLACK OR AFRICAN AMERICAN,HISPANIC OR LATINO,A,Placebo,A,Placebo,GBR
VGS-DEMO-101,DM,VGS-DEMO-101-0037,0037,2025-02-10,2025-05-18,2025-02-04,102,1950-12-19,75,YEARS,M,AMERICAN INDIAN OR ALASKA NATIVE,NOT HISPANIC OR LATINO,B,Drug 10 mg,B,Drug 10 mg,JPN
VGS-DEMO-101,DM,VGS-DEMO-101-0038,0038,2025-01-31,2025-04-04,2025-01-24,103,1987-10-26,38,YEARS,F,WHITE,NOT HISPANIC OR LATINO,C,Drug 20 mg,C,Drug 20 mg,USA
VGS-DEMO-101,DM,VGS-DEMO-101-0039,0039,2025-01-29,2025-05-11,2025-01-27,104,1953-01-27,72,YEARS,F,BLACK OR AFRICAN AMERICAN,NOT HISPANIC OR LATINO,A,Placebo,A,Placebo,IND
VGS-DEMO-101,DM,VGS-DEMO-101-0040,0040,2025-01-19,2025-04-27,2025-01-13,100,1950-12-22,75,YEARS,F,NATIVE HAWAIIAN OR OTHER PACIFIC ISLANDER,HISPANIC OR LATINO,B,Drug 10 mg,B,Drug 10 mg,GBR
VGS-DEMO-101,DM,VGS-DEMO-101-0041,0041,2025-01-23,2025-04-23,2025-01-18,101,1991-09-16,34,YEARS,M,WHITE,NOT HISPANIC OR LATINO,C,Drug 20 mg,C,Drug 20 mg,GBR
VGS-DEMO-101,DM,VGS-DEMO-101-0042,0042,2025-02-05,2025-06-01,2025-01-29,102,1968-05-20,57,YEARS,M,ASIAN,HISPANIC OR LATINO,A,Placebo,A,Placebo,USA
VGS-DEMO-101,DM,VGS-DEMO-101-0043,0043,2025-02-14,2025-05-01,2025-02-13,103,2005-05-27,20,YEARS,M,ASIAN,HISPANIC OR LATINO,B,Drug 10 mg,B,Drug 10 mg,IND
VGS-DEMO-101,DM,VGS-DEMO-101-0044,0044,2025-01-30,2025-04-08,2025-01-27,104,1957-03-02,68,YEARS,M,UNKNOWN,HISPANIC OR LATINO,C,Drug 20 mg,C,Drug 20 mg,IND
VGS-DEMO-101,DM,VGS-DEMO-101-0045,0045,2025-01-17,2025-04-12,2025-01-11,100,1991-04-13,34,YEARS,F,BLACK OR AFRICAN AMERICAN,NOT HISPANIC OR LATINO,A,Placebo,A,Placebo,DEU
VGS-DEMO-101,DM,VGS-DEMO-101-0046,0046,2025-01-23,2025-05-09,2025-01-22,101,1975-07-16,50,YEARS,F,NATIVE HAWAIIAN OR OTHER PACIFIC ISLANDER,NOT HISPANIC OR LATINO,B,Drug 10 mg,B,Drug 10 mg,USA
VGS-DEMO-101,DM,VGS-DEMO-101-0047,0047,2025-02-13,2025-05-15,2025-02-09,102,1975-10-21,50,YEARS,F,AMERICAN INDIAN OR ALASKA NATIVE,HISPANIC OR LATINO,C,Drug 20 mg,C,Drug 20 mg,DEU
VGS-DEMO-101,DM,VGS-DEMO-101-0048,0048,2025-02-08,2025-05-14,2025-02-06,103,1977-04-19,48,YEARS,M,ASIAN,NOT HISPANIC OR LATINO,A,Placebo,A,Placebo,DEU
VGS-DEMO-101,DM,VGS-DEMO-101-0049,0049,2025-02-05,2025-04-13,2025-01-30,104,1992-09-26,33,YEARS,F,ASIAN,HISPANIC OR LATINO,B,Drug 10 mg,B,Drug 10 mg,GBR
VGS-DEMO-101,DM,VGS-DEMO-101-0050,0050,2025-02-03,2025-05-02,2025-02-02,100,1959-04-23,66,YEARS,M,ASIAN,HISPANIC OR LATINO,C,Drug 20 mg,C,Drug 20 mg,JPN
